{
  "resourceType": "Bundle",
  "type": "collection",
  "id": "bundle-full-patient-v2",
  "timestamp": "2025-08-05T20:16:19.734555Z",
  "entry": [
    {
      "resource": {
        "resourceType": "Patient",
        "id": "patient-001",
        "name": [
          {
            "family": "Doe",
            "given": [
              "John"
            ]
          }
        ],
        "gender": "male",
        "birthDate": "1980-05-15"
      }
    },
    {
      "resource": {
        "resourceType": "Practitioner",
        "id": "practitioner-001",
        "name": [
          {
            "text": "Dr. Alice Smith"
          }
        ]
      }
    },
    {
      "resource": {
        "resourceType": "Organization",
        "id": "organization-001",
        "name": "Peachy Health GP Surgery"
      }
    },
    {
      "resource": {
        "resourceType": "Condition",
        "id": "condition-001",
        "code": {
          "coding": [
            {
              "system": "http://snomed.info/sct",
              "code": "38341003",
              "display": "Hypertensive disorder, systemic arterial (disorder)"
            }
          ],
          "text": "Hypertension"
        },
        "clinicalStatus": {
          "text": "active"
        },
        "subject": {
          "reference": "Patient/patient-001"
        },
        "onsetDateTime": "2022-01-15"
      }
    },
    {
      "resource": {
        "resourceType": "Condition",
        "id": "condition-002",
        "code": {
          "coding": [
            {
              "system": "http://snomed.info/sct",
              "code": "44054006",
              "display": "Diabetes mellitus type 2 (disorder)"
            }
          ],
          "text": "Type 2 Diabetes"
        },
        "clinicalStatus": {
          "text": "active"
        },
        "subject": {
          "reference": "Patient/patient-001"
        },
        "onsetDateTime": "2021-09-20"
      }
    },
    {
      "resource": {
        "resourceType": "Procedure",
        "id": "procedure-001",
        "code": {
          "coding": [
            {
              "system": "http://snomed.info/sct",
              "code": "80146002",
              "display": "Appendectomy (procedure)"
            }
          ],
          "text": "Appendectomy"
        },
        "status": "completed",
        "subject": {
          "reference": "Patient/patient-001"
        },
        "performedDateTime": "2010-08-12"
      }
    },
    {
      "resource": {
        "resourceType": "MedicationRequest",
        "id": "medicationrequest-001",
        "medicationCodeableConcept": {
          "coding": [
            {
              "system": "https://dmd.nhs.uk",
              "code": "318964003",
              "display": "Metformin hydrochloride 500mg tablets"
            }
          ],
          "text": "Metformin"
        },
        "status": "active",
        "subject": {
          "reference": "Patient/patient-001"
        },
        "authoredOn": "2024-03-01"
      }
    },
    {
      "resource": {
        "resourceType": "FamilyMemberHistory",
        "id": "familymemberhistory-001",
        "relationship": {
          "text": "Father"
        },
        "condition": [
          {
            "code": {
              "text": "Type 2 Diabetes"
            }
          }
        ],
        "status": "completed",
        "patient": {
          "reference": "Patient/patient-001"
        }
      }
    },
    {
      "resource": {
        "resourceType": "Observation",
        "id": "observation-social-001",
        "code": {
          "text": "Tobacco smoking status"
        },
        "valueCodeableConcept": {
          "text": "Current every day smoker"
        },
        "status": "final",
        "subject": {
          "reference": "Patient/patient-001"
        },
        "effectiveDateTime": "2024-03-01T10:10:00Z"
      }
    },
    {
      "resource": {
        "resourceType": "AllergyIntolerance",
        "id": "allergyintolerance-001",
        "code": {
          "coding": [
            {
              "system": "http://snomed.info/sct",
              "code": "294954006",
              "display": "Allergy to penicillin"
            }
          ],
          "text": "Penicillin"
        },
        "clinicalStatus": {
          "text": "active"
        },
        "reaction": [
          {
            "description": "Rash"
          }
        ],
        "patient": {
          "reference": "Patient/patient-001"
        }
      }
    },
    {
      "resource": {
        "resourceType": "Encounter",
        "id": "encounter-001",
        "status": "finished",
        "class": {
          "code": "outpatient"
        },
        "subject": {
          "reference": "Patient/patient-001"
        },
        "period": {
          "start": "2024-03-01T10:00:00Z",
          "end": "2024-03-01T10:30:00Z"
        },
        "reasonCode": [
          {
            "text": "Annual diabetes review"
          }
        ]
      }
    },
    {
      "resource": {
        "resourceType": "Encounter",
        "id": "encounter-002",
        "status": "in-progress",
        "class": {
          "code": "outpatient"
        },
        "subject": {
          "reference": "Patient/patient-001"
        },
        "period": {
          "start": "2025-08-01T09:00:00Z"
        },
        "reasonCode": [
          {
            "text": "Cough and fever"
          }
        ]
      }
    },
    {
      "resource": {
        "resourceType": "Observation",
        "id": "observation-ros-001",
        "code": {
          "text": "Review of Systems"
        },
        "valueString": "Fever, sore throat, dry cough. No shortness of breath.",
        "status": "final",
        "subject": {
          "reference": "Patient/patient-001"
        },
        "effectiveDateTime": "2025-08-01T09:15:00Z"
      }
    },
    {
      "resource": {
        "resourceType": "Condition",
        "id": "condition-003",
        "code": {
          "coding": [
            {
              "system": "http://snomed.info/sct",
              "code": "10509002",
              "display": "Acute upper respiratory infection"
            }
          ],
          "text": "Suspected Upper Respiratory Infection"
        },
        "subject": {
          "reference": "Patient/patient-001"
        },
        "encounter": {
          "reference": "Encounter/encounter-002"
        },
        "onsetDateTime": "2025-08-01"
      }
    },
    {
      "resource": {
        "resourceType": "Observation",
        "id": "observation-bp-001",
        "code": {
          "coding": [
            {
              "system": "http://loinc.org",
              "code": "85354-9",
              "display": "Blood pressure panel with all children optional"
            }
          ],
          "text": "Blood Pressure"
        },
        "valueQuantity": {
          "value": 130,
          "unit": "mmHg"
        },
        "status": "final",
        "subject": {
          "reference": "Patient/patient-001"
        },
        "effectiveDateTime": "2024-03-01T10:05:00Z"
      }
    },
    {
      "resource": {
        "resourceType": "Observation",
        "id": "observation-hba1c-001",
        "code": {
          "coding": [
            {
              "system": "http://loinc.org",
              "code": "4548-4",
              "display": "Hemoglobin A1c/Hemoglobin.total in Blood"
            }
          ],
          "text": "HbA1c"
        },
        "valueQuantity": {
          "value": 7.2,
          "unit": "%"
        },
        "status": "final",
        "subject": {
          "reference": "Patient/patient-001"
        },
        "effectiveDateTime": "2024-03-01T10:10:00Z"
      }
    },
    {
      "resource": {
        "resourceType": "CarePlan",
        "id": "careplan-001",
        "title": "Chronic disease management",
        "status": "active",
        "subject": {
          "reference": "Patient/patient-001"
        },
        "period": {
          "start": "2024-03-01",
          "end": "2024-09-01"
        }
      }
    }
  ]
}